
##TITLE=aubrays_108-94-1_cyclohexanone.csv
##JCAMP-DX=5.00   $$ cheminfo.org
##DATA TYPE=IR spectrum
##DATA CLASS=PEAK TABLE
##FIRSTX=597.931553
##LASTX=4200.951365
##FIRSTY=31.233769
##LASTY=100.400625
##ORIGIN= Ecole Polytechnique Federale de Lausanne
##SPECTROMETER DATA SYSTEM=
##XUNITS=Wavenumber
##YUNITS=%Transmittance
##NPOINTS=935
##PEAK TABLE=(XY..XY)
597.931553 98.616493
601.789176 98.691533
605.646799 98.699838
609.504422 98.938587
613.362045 99.014161
617.219668 99.079446
621.077291 99.060030
624.934914 98.871212
628.792537 98.784983
632.650160 98.419782
636.507783 98.023338
640.365406 97.130943
644.223028 95.898993
648.080651 94.439290
651.938274 93.675501
655.795897 94.372422
659.653520 95.848424
663.511143 97.141300
667.368766 97.881097
671.226389 98.533865
675.084012 98.778797
678.941635 98.967404
682.799258 99.042360
686.656881 98.911129
690.514504 98.990115
694.372126 99.023646
698.229749 99.064341
702.087372 99.001485
705.944995 98.960715
709.802618 98.896091
713.660241 98.845521
717.517864 98.721418
721.375487 98.461476
725.233110 98.362168
729.090733 97.987256
732.948356 97.467522
736.805979 96.396929
740.663602 94.200047
744.521224 90.172245
748.378847 86.135937
752.236470 86.844961
756.094093 90.916709
759.951716 94.230851
763.809339 96.129237
767.666962 97.210022
771.524585 97.887019
775.382208 98.229783
779.239831 98.468836
783.097454 98.548917
786.955077 98.615669
790.812700 98.638367
794.670323 98.638085
798.527945 98.694513
802.385568 98.791428
806.243191 98.807878
810.100814 98.717415
813.958437 98.759387
817.816060 98.654989
821.673683 98.649240
825.531306 98.637574
829.388929 98.513049
833.246552 98.162125
837.104175 97.611011
840.961798 97.555888
844.819421 97.793656
848.677043 97.913763
852.534666 97.442021
856.392289 95.987774
860.249912 92.388183
864.107535 89.718947
867.965158 92.167848
871.822781 95.635945
875.680404 97.006818
879.538027 97.177178
883.395650 96.619727
887.253273 95.326449
891.110896 93.625866
894.968519 92.664720
898.826141 92.209859
902.683764 90.282285
906.541387 86.930536
910.399010 88.062178
914.256633 93.449869
918.114256 96.626537
921.971879 97.684814
925.829502 97.996852
929.687125 98.184661
933.544748 98.386324
937.402371 98.407920
941.259994 98.496307
945.117617 98.420572
948.975240 98.485657
952.832862 98.450764
956.690485 98.466480
960.548108 98.384673
964.405731 98.236555
968.263354 98.156976
972.120977 98.004367
975.978600 97.986475
979.836223 97.710166
983.693846 97.262311
987.551469 96.189682
991.409092 95.589445
995.266715 96.501792
999.124338 97.395267
1002.981960 97.602080
1006.839583 97.196517
1010.697206 95.970877
1014.554829 93.252315
1018.412452 92.002705
1022.270075 94.407140
1026.127698 96.752334
1029.985321 97.465188
1033.842944 97.507605
1037.700567 97.280066
1041.558190 96.583812
1045.415813 94.800034
1049.273436 92.382006
1053.131058 91.533475
1056.988681 93.033469
1060.846304 94.603427
1064.703927 95.457775
1068.561550 95.758058
1072.419173 95.895471
1076.276796 96.488085
1080.134419 97.178286
1083.992042 97.596026
1087.849665 97.646658
1091.707288 97.618378
1095.564911 97.392857
1099.422534 96.864029
1103.280156 95.858059
1107.137779 93.646414
1110.995402 88.695735
1114.853025 80.676925
1118.710648 76.633653
1122.568271 81.892046
1126.425894 89.723969
1130.283517 93.978108
1134.141140 95.975830
1137.998763 96.957991
1141.856386 97.557684
1145.714009 97.893946
1149.571632 98.090789
1153.429255 98.267701
1157.286877 98.285081
1161.144500 98.402006
1165.002123 98.378841
1168.859746 98.441794
1172.717369 98.407264
1176.574992 98.293866
1180.432615 98.281856
1184.290238 98.160400
1188.147861 98.074555
1192.005484 97.794247
1195.863107 97.484908
1199.720730 96.838750
1203.578353 95.809965
1207.435975 94.177206
1211.293598 90.795959
1215.151221 84.255758
1219.008844 76.366285
1222.866467 75.247604
1226.724090 82.049830
1230.581713 88.792599
1234.439336 92.383164
1238.296959 94.192101
1242.154582 95.364744
1246.012205 96.042567
1249.869828 96.497505
1253.727451 96.763288
1257.585073 96.667196
1261.442696 96.049646
1265.300319 95.698224
1269.157942 96.493919
1273.015565 97.359412
1276.873188 97.770062
1280.730811 97.770291
1284.588434 97.640685
1288.446057 97.376761
1292.303680 96.788219
1296.161303 95.720353
1300.018926 93.336329
1303.876549 88.653921
1307.734172 81.694593
1311.591794 78.565766
1315.449417 82.947329
1319.307040 89.078421
1323.164663 92.708601
1327.022286 93.989417
1330.879909 93.466638
1334.737532 90.679304
1338.595155 88.164792
1342.452778 88.348922
1346.310401 88.847970
1350.168024 91.217793
1354.025647 94.920190
1357.883270 96.876294
1361.740892 97.645326
1365.598515 97.887896
1369.456138 98.015798
1373.313761 98.107716
1377.171384 98.130643
1381.029007 98.146293
1384.886630 98.019750
1388.744253 97.862154
1392.601876 97.550790
1396.459499 97.139060
1400.317122 96.673563
1404.174745 96.051842
1408.032368 95.043976
1411.889990 93.192671
1415.747613 90.341899
1419.605236 86.862583
1423.462859 85.442658
1427.320482 85.696360
1431.178105 86.871725
1435.035728 89.246700
1438.893351 91.064982
1442.750974 88.825125
1446.608597 83.589623
1450.466220 81.016375
1454.323843 84.656921
1458.181466 90.910064
1462.039089 93.133161
1465.896711 94.445724
1469.754334 95.787929
1473.611957 97.222526
1477.469580 97.984125
1481.327203 98.161642
1485.184826 98.353217
1489.042449 98.354706
1492.900072 98.555603
1496.757695 98.500458
1500.615318 98.609881
1504.472941 98.595041
1508.330564 98.735980
1512.188187 98.930944
1516.045809 98.888886
1519.903432 99.119433
1523.761055 99.085687
1527.618678 99.161021
1531.476301 99.014665
1535.333924 99.016612
1539.191547 99.117910
1543.049170 99.263454
1546.906793 99.342652
1550.764416 99.106545
1554.622039 99.105726
1558.479662 99.084476
1562.337285 99.357878
1566.194907 99.300198
1570.052530 99.204057
1573.910153 99.192122
1577.767776 99.128970
1581.625399 99.170729
1585.483022 98.922059
1589.340645 98.792850
1593.198268 98.710823
1597.055891 98.824051
1600.913514 98.847128
1604.771137 98.740372
1608.628760 98.682893
1612.486383 98.437739
1616.344005 98.436402
1620.201628 98.107452
1624.059251 97.818217
1627.916874 97.204837
1631.774497 96.718695
1635.632120 96.621943
1639.489743 96.510899
1643.347366 96.658195
1647.204989 96.544234
1651.062612 96.903691
1654.920235 96.896477
1658.777858 96.646912
1662.635481 96.029054
1666.493104 94.731370
1670.350726 93.619554
1674.208349 92.061895
1678.065972 91.817707
1681.923595 91.189147
1685.781218 89.303044
1689.638841 85.215837
1693.496464 78.147906
1697.354087 62.511328
1701.211710 39.683287
1705.069333 31.233769
1708.926956 32.358219
1712.784579 36.279691
1716.642202 48.107807
1720.499824 64.886512
1724.357447 75.527438
1728.215070 83.738483
1732.072693 89.301156
1735.930316 93.370175
1739.787939 94.382031
1743.645562 95.208331
1747.503185 95.529939
1751.360808 95.898546
1755.218431 96.566393
1759.076054 96.705248
1762.933677 96.887748
1766.791300 96.633572
1770.648922 97.304597
1774.506545 98.137280
1778.364168 98.626533
1782.221791 98.901727
1786.079414 98.850208
1789.937037 98.988584
1793.794660 98.804007
1797.652283 98.832656
1801.509906 98.357729
1805.367529 98.146761
1809.225152 98.217815
1813.082775 98.436400
1816.940398 98.859151
1820.798021 98.960394
1824.655643 99.309007
1828.513266 99.352861
1832.370889 99.451860
1836.228512 99.400505
1840.086135 99.365050
1843.943758 99.546535
1847.801381 99.541133
1851.659004 99.718052
1855.516627 99.578076
1859.374250 99.515449
1863.231873 99.316347
1867.089496 99.297707
1870.947119 99.472857
1874.804741 99.456375
1878.662364 99.537529
1882.519987 99.374516
1886.377610 99.533016
1890.235233 99.619793
1894.092856 99.751786
1897.950479 99.744892
1901.808102 99.666790
1905.665725 99.765103
1909.523348 99.583051
1913.380971 99.652087
1917.238594 99.555927
1921.096217 99.746211
1924.953839 99.834669
1928.811462 99.707915
1932.669085 99.630470
1936.526708 99.458789
1940.384331 99.686720
1944.241954 99.596607
1948.099577 99.719269
1951.957200 99.636314
1955.814823 99.599377
1959.672446 99.638246
1963.530069 99.504878
1967.387692 99.755994
1971.245315 99.455342
1975.102938 99.554781
1978.960560 99.401539
1982.818183 99.575357
1986.675806 99.726376
1990.533429 99.659900
1994.391052 99.893544
1998.248675 99.706290
2002.106298 99.863323
2005.963921 99.672057
2009.821544 99.717911
2013.679167 99.686754
2017.536790 99.558524
2021.394413 99.697736
2025.252036 99.411929
2029.109658 99.591980
2032.967281 99.520565
2036.824904 99.637714
2040.682527 99.499204
2044.540150 99.476847
2048.397773 99.634221
2052.255396 99.485661
2056.113019 99.535151
2059.970642 99.364955
2063.828265 99.380216
2067.685888 99.349260
2071.543511 99.499373
2075.401134 99.597303
2079.258756 99.491960
2083.116379 99.546598
2086.974002 99.473771
2090.831625 99.563113
2094.689248 99.500444
2098.546871 99.498772
2102.404494 99.534489
2106.262117 99.578556
2110.119740 99.624062
2113.977363 99.534568
2117.834986 99.655987
2121.692609 99.585821
2125.550232 99.601642
2129.407854 99.524292
2133.265477 99.443334
2137.123100 99.546556
2140.980723 99.541023
2144.838346 99.712166
2148.695969 99.628183
2152.553592 99.792327
2156.411215 99.698298
2160.268838 99.561659
2164.126461 99.729165
2167.984084 99.651977
2171.841707 99.612000
2175.699330 99.343654
2179.556953 99.494269
2183.414575 99.557613
2187.272198 99.645132
2191.129821 99.705852
2194.987444 99.585207
2198.845067 99.599245
2202.702690 99.577843
2206.560313 99.745970
2210.417936 99.699292
2214.275559 99.727031
2218.133182 99.714815
2221.990805 99.663794
2225.848428 99.671836
2229.706051 99.540880
2233.563673 99.599797
2237.421296 99.588653
2241.278919 99.597472
2245.136542 99.596387
2248.994165 99.652572
2252.851788 99.665329
2256.709411 99.621720
2260.567034 99.667233
2264.424657 99.636013
2268.282280 99.655453
2272.139903 99.554540
2275.997526 99.560717
2279.855149 99.575775
2283.712771 99.544055
2287.570394 99.578087
2291.428017 99.572370
2295.285640 99.602202
2299.143263 99.542385
2303.000886 99.559010
2306.858509 99.518997
2310.716132 99.473382
2314.573755 99.513936
2318.431378 99.476339
2322.289001 99.472049
2326.146624 99.280854
2330.004247 99.151854
2333.861870 99.048915
2337.719492 99.037212
2341.577115 99.229528
2345.434738 99.360195
2349.292361 99.353697
2353.149984 99.123356
2357.007607 99.017081
2360.865230 99.061703
2364.722853 99.139249
2368.580476 99.189529
2372.438099 99.190465
2376.295722 99.331522
2380.153345 99.449283
2384.010968 99.523551
2387.868590 99.510926
2391.726213 99.568005
2395.583836 99.629357
2399.441459 99.641090
2403.299082 99.621293
2407.156705 99.546590
2411.014328 99.553918
2414.871951 99.531274
2418.729574 99.530811
2422.587197 99.495518
2426.444820 99.482970
2430.302443 99.502582
2434.160066 99.492496
2438.017688 99.548283
2441.875311 99.495626
2445.732934 99.470667
2449.590557 99.478556
2453.448180 99.497048
2457.305803 99.515378
2461.163426 99.495659
2465.021049 99.479691
2468.878672 99.447960
2472.736295 99.536463
2476.593918 99.586595
2480.451541 99.585791
2484.309164 99.551444
2488.166786 99.542773
2492.024409 99.583348
2495.882032 99.553394
2499.739655 99.577136
2503.597278 99.566522
2507.454901 99.558159
2511.312524 99.514937
2515.170147 99.504017
2519.027770 99.549812
2522.885393 99.523267
2526.743016 99.541573
2530.600639 99.492316
2534.458262 99.465068
2538.315885 99.492932
2542.173507 99.505376
2546.031130 99.504332
2549.888753 99.512076
2553.746376 99.536512
2557.603999 99.500010
2561.461622 99.521157
2565.319245 99.546650
2569.176868 99.563202
2573.034491 99.553346
2576.892114 99.556798
2580.749737 99.564950
2584.607360 99.495557
2588.464983 99.507588
2592.322605 99.523525
2596.180228 99.520225
2600.037851 99.491265
2603.895474 99.455293
2607.753097 99.435212
2611.610720 99.395078
2615.468343 99.387688
2619.325966 99.382820
2623.183589 99.420167
2627.041212 99.453414
2630.898835 99.473000
2634.756458 99.435146
2638.614081 99.358135
2642.471703 99.310884
2646.329326 99.238810
2650.186949 99.197038
2654.044572 99.173711
2657.902195 99.170347
2661.759818 99.089273
2665.617441 98.937289
2669.475064 98.841373
2673.332687 98.816882
2677.190310 98.923912
2681.047933 99.082985
2684.905556 99.228522
2688.763179 99.305129
2692.620802 99.359949
2696.478424 99.429419
2700.336047 99.439352
2704.193670 99.460183
2708.051293 99.480783
2711.908916 99.479287
2715.766539 99.458247
2719.624162 99.482901
2723.481785 99.520315
2727.339408 99.504958
2731.197031 99.495228
2735.054654 99.468935
2738.912277 99.448827
2742.769900 99.433237
2746.627522 99.427807
2750.485145 99.390681
2754.342768 99.338239
2758.200391 99.301260
2762.058014 99.251083
2765.915637 99.240245
2769.773260 99.210735
2773.630883 99.177433
2777.488506 99.127109
2781.346129 99.066199
2785.203752 99.003690
2789.061375 98.902678
2792.918998 98.793411
2796.776620 98.663097
2800.634243 98.616068
2804.491866 98.577671
2808.349489 98.465395
2812.207112 98.277291
2816.064735 97.995188
2819.922358 97.664616
2823.779981 97.297656
2827.637604 97.042659
2831.495227 96.878410
2835.352850 96.681678
2839.210473 96.237702
2843.068096 95.327787
2846.925719 93.764217
2850.783341 91.257883
2854.640964 88.097627
2858.498587 85.221872
2862.356210 83.925145
2866.213833 84.818119
2870.071456 87.085713
2873.929079 89.416085
2877.786702 91.038354
2881.644325 91.998052
2885.501948 92.416913
2889.359571 92.410598
2893.217194 92.127663
2897.074817 91.653662
2900.932439 90.998356
2904.790062 90.204993
2908.647685 89.345733
2912.505308 88.078554
2916.362931 86.097124
2920.220554 83.479982
2924.078177 80.584438
2927.935800 77.784662
2931.793423 75.648466
2935.651046 74.845049
2939.508669 75.384162
2943.366292 77.006780
2947.223915 79.170063
2951.081537 81.263201
2954.939160 83.116351
2958.796783 85.024395
2962.654406 87.363881
2966.512029 89.899865
2970.369652 92.247438
2974.227275 94.172269
2978.084898 95.647725
2981.942521 96.682732
2985.800144 97.373448
2989.657767 97.899156
2993.515390 98.294880
2997.373013 98.595962
3001.230635 98.789619
3005.088258 98.929881
3008.945881 99.040208
3012.803504 99.124594
3016.661127 99.177918
3020.518750 99.228607
3024.376373 99.314003
3028.233996 99.344786
3032.091619 99.383403
3035.949242 99.443618
3039.806865 99.495167
3043.664488 99.523908
3047.522111 99.535386
3051.379734 99.549485
3055.237356 99.562211
3059.094979 99.616733
3062.952602 99.634440
3066.810225 99.655515
3070.667848 99.687400
3074.525471 99.713754
3078.383094 99.753628
3082.240717 99.767681
3086.098340 99.774519
3089.955963 99.749579
3093.813586 99.770856
3097.671209 99.804248
3101.528832 99.837587
3105.386454 99.842929
3109.244077 99.795983
3113.101700 99.808738
3116.959323 99.791941
3120.816946 99.794292
3124.674569 99.818062
3128.532192 99.817024
3132.389815 99.813876
3136.247438 99.812754
3140.105061 99.848129
3143.962684 99.855585
3147.820307 99.871492
3151.677930 99.878347
3155.535552 99.880343
3159.393175 99.881145
3163.250798 99.876733
3167.108421 99.896180
3170.966044 99.911530
3174.823667 99.962558
3178.681290 99.971029
3182.538913 99.948100
3186.396536 99.925689
3190.254159 99.902045
3194.111782 99.897660
3197.969405 99.919171
3201.827028 99.955009
3205.684651 99.922974
3209.542273 99.911161
3213.399896 99.890499
3217.257519 99.866051
3221.115142 99.874914
3224.972765 99.855099
3228.830388 99.827200
3232.688011 99.807026
3236.545634 99.854692
3240.403257 99.883438
3244.260880 99.907853
3248.118503 99.897531
3251.976126 99.847747
3255.833749 99.888293
3259.691371 99.908281
3263.548994 99.899762
3267.406617 99.879260
3271.264240 99.875317
3275.121863 99.894786
3278.979486 99.918723
3282.837109 99.929043
3286.694732 99.884861
3290.552355 99.862480
3294.409978 99.867393
3298.267601 99.897968
3302.125224 99.880554
3305.982847 99.872887
3309.840469 99.893982
3313.698092 99.872424
3317.555715 99.877793
3321.413338 99.863875
3325.270961 99.867329
3329.128584 99.850804
3332.986207 99.832618
3336.843830 99.840166
3340.701453 99.823712
3344.559076 99.813291
3348.416699 99.768914
3352.274322 99.764799
3356.131945 99.778842
3359.989568 99.788114
3363.847190 99.755755
3367.704813 99.727283
3371.562436 99.753986
3375.420059 99.703607
3379.277682 99.671078
3383.135305 99.598449
3386.992928 99.511476
3390.850551 99.468983
3394.708174 99.339862
3398.565797 99.211777
3402.423420 99.106522
3406.281043 99.033050
3410.138666 99.023580
3413.996288 99.061005
3417.853911 99.127538
3421.711534 99.247209
3425.569157 99.365828
3429.426780 99.423423
3433.284403 99.484930
3437.142026 99.480663
3440.999649 99.432751
3444.857272 99.453428
3448.714895 99.522285
3452.572518 99.545010
3456.430141 99.549729
3460.287764 99.570915
3464.145386 99.593927
3468.003009 99.621542
3471.860632 99.548904
3475.718255 99.458560
3479.575878 99.429108
3483.433501 99.426315
3487.291124 99.458237
3491.148747 99.431386
3495.006370 99.334247
3498.863993 99.289150
3502.721616 99.326393
3506.579239 99.330491
3510.436862 99.301821
3514.294484 99.234978
3518.152107 99.158629
3522.009730 99.184069
3525.867353 99.291181
3529.724976 99.351006
3533.582599 99.279619
3537.440222 99.185102
3541.297845 99.151589
3545.155468 99.293338
3549.013091 99.574371
3552.870714 99.637316
3556.728337 99.440172
3560.585960 99.201038
3564.443583 99.142755
3568.301205 99.336752
3572.158828 99.507051
3576.016451 99.446180
3579.874074 99.294516
3583.731697 99.202192
3587.589320 99.241795
3591.446943 99.389243
3595.304566 99.337370
3599.162189 99.291327
3603.019812 99.267132
3606.877435 99.256822
3610.735058 99.393313
3614.592681 99.404628
3618.450303 99.288613
3622.307926 99.112090
3626.165549 99.131890
3630.023172 99.501083
3633.880795 99.792844
3637.738418 99.719511
3641.596041 99.372311
3645.453664 99.149796
3649.311287 99.435271
3653.168910 100.052898
3657.026533 100.083064
3660.884156 99.708937
3664.741779 99.426855
3668.599401 99.381154
3672.457024 99.874999
3676.314647 100.400625
3680.172270 100.239527
3684.029893 99.808346
3687.887516 99.473053
3691.745139 99.774928
3695.602762 100.084825
3699.460385 100.188742
3703.318008 100.155140
3707.175631 99.975883
3711.033254 99.989695
3714.890877 100.127754
3718.748500 100.046626
3722.606122 99.953434
3726.463745 100.034178
3730.321368 100.178400
3734.178991 100.381289
3738.036614 100.362925
3741.894237 100.060945
3745.751860 99.755252
3749.609483 99.861791
3753.467106 100.125110
3757.324729 100.216929
3761.182352 100.191883
3765.039975 100.059116
3768.897598 100.010786
3772.755220 100.008692
3776.612843 100.062621
3780.470466 100.169126
3784.328089 100.253920
3788.185712 100.210125
3792.043335 100.015102
3795.900958 99.941468
3799.758581 100.059874
3803.616204 100.388483
3807.473827 100.393176
3811.331450 100.081240
3815.189073 99.907115
3819.046696 99.996627
3822.904318 100.386065
3826.761941 100.356759
3830.619564 100.129102
3834.477187 100.007575
3838.334810 100.092791
3842.192433 100.347090
3846.050056 100.180249
3849.907679 99.999836
3853.765302 100.053030
3857.622925 100.251521
3861.480548 100.242129
3865.338171 100.071278
3869.195794 100.067861
3873.053417 100.045522
3876.911039 100.099228
3880.768662 100.199232
3884.626285 100.245785
3888.483908 100.251849
3892.341531 100.124285
3896.199154 100.019823
3900.056777 99.984524
3903.914400 100.228593
3907.772023 100.383639
3911.629646 100.210170
3915.487269 99.996663
3919.344892 99.947985
3923.202515 100.079467
3927.060137 100.175746
3930.917760 100.205887
3934.775383 100.128796
3938.633006 100.019113
3942.490629 99.983621
3946.348252 100.006567
3950.205875 100.073150
3954.063498 100.121163
3957.921121 100.115539
3961.778744 100.065736
3965.636367 100.041942
3969.493990 100.043410
3973.351613 100.097091
3977.209235 100.154710
3981.066858 100.137612
3984.924481 100.119774
3988.782104 100.094519
3992.639727 100.088864
3996.497350 100.075794
4000.354973 100.066051
4004.212596 100.094579
4008.070219 100.100859
4011.927842 100.097053
4015.785465 100.073336
4019.643088 100.053067
4023.500711 100.062270
4027.358333 100.087134
4031.215956 100.089795
4035.073579 100.075065
4038.931202 100.076834
4042.788825 100.103176
4046.646448 100.124894
4050.504071 100.099004
4054.361694 100.088571
4058.219317 100.110077
4062.076940 100.159857
4065.934563 100.151000
4069.792186 100.087227
4073.649809 100.078529
4077.507432 100.062617
4081.365054 100.055548
4085.222677 100.059268
4089.080300 100.073603
4092.937923 100.095242
4096.795546 100.109853
4100.653169 100.113797
4104.510792 100.094912
4108.368415 100.129116
4112.226038 100.118935
4116.083661 100.070855
4119.941284 100.064439
4123.798907 100.061781
4127.656530 100.075104
4131.514152 100.081812
4135.371775 100.084402
4139.229398 100.074443
4143.087021 100.066920
4146.944644 100.062249
4150.802267 100.066084
4154.659890 100.077434
4158.517513 100.081876
4162.375136 100.100977
4166.232759 100.100003
4170.090382 100.106547
4173.948005 100.128782
4177.805628 100.153773
4181.663250 100.149843
4185.520873 100.143592
4189.378496 100.155271
4193.236119 100.127952
4197.093742 100.128902
4200.951365 100.140027
##END
